loops.thisTrialN,loops.stepSize,loops.intensity,fixation.started,fixation.stopped,grating.started,key_resp.started,grating.stopped,corrAns,tilt,key_resp.corr,loops.response,key_resp.rt,participant,session,date,expName,psychopyVersion,frameRate,
0,2,10.0,14.763090099906549,15.279691099887714,15.279691099887714,15.279691099887714,15.581388500053436,right,10.0,1,1,1.909108200110495,0001,001,2023-09-05_23h54.05.927,staircase,2023.1.3,60.018461679647615,
1,2,8.0,17.214493999956176,17.714726199861616,17.714726199861616,17.714726199861616,18.014632700011134,right,8.0,1,1,0.6755419000983238,0001,001,2023-09-05_23h54.05.927,staircase,2023.1.3,60.018461679647615,
2,2,6.0,18.413979399949312,18.91453339997679,18.91453339997679,18.91453339997679,19.214645999949425,left,-6.0,1,1,0.6426496000494808,0001,001,2023-09-05_23h54.05.927,staircase,2023.1.3,60.018461679647615,
3,2,4.0,19.58082799986005,20.08102499996312,20.08102499996312,20.08102499996312,20.38142289989628,right,4.0,1,1,0.6513799999374896,0001,001,2023-09-05_23h54.05.927,staircase,2023.1.3,60.018461679647615,
4,2,2.0,20.764522099867463,21.264295399887487,21.24740289989859,21.24740289989859,21.54792709997855,right,2.0,1,1,0.6796854001004249,0001,001,2023-09-05_23h54.05.927,staircase,2023.1.3,60.018461679647615,
5,2,0.0,21.947912100004032,22.44795270008035,22.431304099969566,22.431304099969566,22.73123879986815,right,0.0,1,1,0.6586851999163628,0001,001,2023-09-05_23h54.05.927,staircase,2023.1.3,60.018461679647615,
6,1,0.0,23.11382079985924,23.614755999995396,23.597913099918514,23.597913099918514,23.8978387999814,right,0.0,0,0,1.526797599857673,0001,001,2023-09-05_23h54.05.927,staircase,2023.1.3,60.018461679647615,
7,1,1.0,25.147209600079805,25.647450200049207,25.647450200049207,25.647450200049207,25.947514300001785,left,-1.0,1,1,0.832971400115639,0001,001,2023-09-05_23h54.05.927,staircase,2023.1.3,60.018461679647615,
8,1,1.0,26.497358199907467,26.997579799965024,26.997579799965024,26.997579799965024,27.29769410006702,right,1.0,1,1,0.5769718000665307,0001,001,2023-09-05_23h54.05.927,staircase,2023.1.3,60.018461679647615,
9,1,1.0,27.597372699994594,28.097236200002953,28.097236200002953,28.097236200002953,28.397558100055903,left,-1.0,0,0,1.294771800050512,0001,001,2023-09-05_23h54.05.927,staircase,2023.1.3,60.018461679647615,
10,1,2.0,29.413672300055623,29.914259299868718,29.914259299868718,29.914259299868718,30.213945399969816,left,-2.0,1,1,0.6764744999818504,0001,001,2023-09-05_23h54.05.927,staircase,2023.1.3,60.018461679647615,
11,1,2.0,30.613312900066376,31.11381409992464,31.11381409992464,31.11381409992464,31.41372160008177,right,2.0,1,1,0.7230708000715822,0001,001,2023-09-05_23h54.05.927,staircase,2023.1.3,60.018461679647615,
12,1,2.0,31.863039700081572,32.36398519994691,32.36398519994691,32.36398519994691,32.66397330001928,left,-2.0,1,1,0.9132261001504958,0001,001,2023-09-05_23h54.05.927,staircase,2023.1.3,60.018461679647615,
13,0.5,1.0,33.29672440001741,33.79719200008549,33.79719200008549,33.79719200008549,34.09707439993508,left,-1.0,0,0,1.2781378000508994,0001,001,2023-09-05_23h54.05.927,staircase,2023.1.3,60.018461679647615,
14,0.5,1.5,35.0967621000018,35.59707919997163,35.59707919997163,35.59707919997163,35.897043499862775,left,-1.5,1,1,1.04931930010207,0001,001,2023-09-05_23h54.05.927,staircase,2023.1.3,60.018461679647615,
15,0.5,1.5,36.663557099876925,37.1636721000541,37.1636721000541,37.1636721000541,37.46332950005308,left,-1.5,1,1,0.5938949999399483,0001,001,2023-09-05_23h54.05.927,staircase,2023.1.3,60.018461679647615,
16,0.5,1.5,37.77943470003083,38.27996680000797,38.27996680000797,38.27996680000797,38.58016459993087,right,1.5,1,1,1.061912399949506,0001,001,2023-09-05_23h54.05.927,staircase,2023.1.3,60.018461679647615,
17,0.5,1.0,39.363087699981406,39.86321370000951,39.86321370000951,39.86321370000951,40.16349389986135,right,1.0,1,1,0.8826457001268864,0001,001,2023-09-05_23h54.05.927,staircase,2023.1.3,60.018461679647615,
18,0.5,1.0,40.76337129995227,41.26278500002809,41.26278500002809,41.26278500002809,41.56221850006841,right,1.0,1,1,0.7183193999808282,0001,001,2023-09-05_23h54.05.927,staircase,2023.1.3,60.018461679647615,
19,0.5,1.0,42.012789600063115,42.513487099902704,42.513487099902704,42.513487099902704,42.81318049994297,left,-1.0,0,0,1.1343088999856263,0001,001,2023-09-05_23h54.05.927,staircase,2023.1.3,60.018461679647615,
20,0.5,1.5,43.67919970001094,44.18054370000027,44.18054370000027,44.18054370000027,44.47974149999209,right,1.5,1,1,1.1016971000935882,0001,001,2023-09-05_23h54.05.927,staircase,2023.1.3,60.018461679647615,
21,0.5,1.5,45.312357699964195,45.81296449992806,45.81296449992806,45.81296449992806,46.11297470005229,left,-1.5,1,1,0.9831546999048442,0001,001,2023-09-05_23h54.05.927,staircase,2023.1.3,60.018461679647615,
22,0.5,1.5,46.812363900011405,47.31278549996205,47.31278549996205,47.31278549996205,47.61316019995138,right,1.5,1,1,1.064481400186196,0001,001,2023-09-05_23h54.05.927,staircase,2023.1.3,60.018461679647615,
23,0.5,1.0,48.396186999976635,48.89614999992773,48.89614999992773,48.89614999992773,49.195944499922916,left,-1.0,1,1,0.8263228998985142,0001,001,2023-09-05_23h54.05.927,staircase,2023.1.3,60.018461679647615,
24,0.5,1.0,49.74629219993949,50.24599249986932,50.24599249986932,50.24599249986932,50.5459114999976,left,-1.0,1,1,0.7028942999895662,0001,001,2023-09-05_23h54.05.927,staircase,2023.1.3,60.018461679647615,
25,0.5,1.0,50.97951689991169,51.4789569999557,51.4789569999557,51.4789569999557,51.778916500043124,left,-1.0,1,1,0.7472453999798745,0001,001,2023-09-05_23h54.05.927,staircase,2023.1.3,60.018461679647615,
26,0.5,0.5,52.24538960005157,52.7458657999523,52.7458657999523,52.7458657999523,53.04586010007188,left,-0.5,1,1,0.9261618000455201,0001,001,2023-09-05_23h54.05.927,staircase,2023.1.3,60.018461679647615,
27,0.5,0.5,53.695527100004256,54.195863199885935,54.17923539993353,54.17923539993353,54.478949500015005,right,0.5,1,1,0.6353441998362541,0001,001,2023-09-05_23h54.05.927,staircase,2023.1.3,60.018461679647615,
28,0.5,0.5,54.845443499973044,55.3455902999267,55.3455902999267,55.3455902999267,55.64552209991962,right,0.5,1,1,0.6629349000286311,0001,001,2023-09-05_23h54.05.927,staircase,2023.1.3,60.018461679647615,
29,0.5,0.0,56.028166600037366,56.529292499879375,56.511802199995145,56.511802199995145,56.81226660008542,left,-0.0,1,1,0.9315543998964131,0001,001,2023-09-05_23h54.05.927,staircase,2023.1.3,60.018461679647615,
30,0.5,0.0,57.46190289990045,57.96192210004665,57.96192210004665,57.96192210004665,58.26221839990467,left,-0.0,0,0,1.785886300029233,0001,001,2023-09-05_23h54.05.927,staircase,2023.1.3,60.018461679647615,
31,0.5,0.5,59.779071300057694,60.278242599917576,60.26199929998256,60.26199929998256,60.562113699968904,left,-0.5,1,1,0.7934617998544127,0001,001,2023-09-05_23h54.05.927,staircase,2023.1.3,60.018461679647615,
32,0.5,0.5,61.07877859985456,61.57893650000915,61.56155649991706,61.56155649991706,61.86184410005808,left,-0.5,1,1,0.7992698000743985,0001,001,2023-09-05_23h54.05.927,staircase,2023.1.3,60.018461679647615,
33,0.5,0.5,62.37819870002568,62.878480799961835,62.878480799961835,62.878480799961835,63.179260100005195,right,0.5,0,0,0.8437315998598933,0001,001,2023-09-05_23h54.05.927,staircase,2023.1.3,60.018461679647615,
34,0.5,1.0,63.74435459985398,64.24558430002071,64.24558430002071,64.24558430002071,64.5449951000046,right,1.0,1,1,0.6193480000365525,0001,001,2023-09-05_23h54.05.927,staircase,2023.1.3,60.018461679647615,
35,0.5,1.0,64.89427429996431,65.39524840004742,65.37837280007079,65.37837280007079,65.67977869999595,left,-1.0,1,1,0.6504034001845866,0001,001,2023-09-05_23h54.05.927,staircase,2023.1.3,60.018461679647615,
36,0.5,1.0,66.06181319989264,66.56159499986097,66.54443140001968,66.54443140001968,66.84490019991063,left,-1.0,0,0,0.6274550999514759,0001,001,2023-09-05_23h54.05.927,staircase,2023.1.3,60.018461679647615,
37,0.5,1.5,67.19431390007958,67.69536740006879,67.69536740006879,67.69536740006879,67.99487209995277,right,1.5,1,1,0.7745874000247568,0001,001,2023-09-05_23h54.05.927,staircase,2023.1.3,60.018461679647615,
38,0.5,1.5,68.49504099995829,68.99489189987071,68.97773410007358,68.97773410007358,69.27825789991766,right,1.5,1,1,0.7496336998883635,0001,001,2023-09-05_23h54.05.927,staircase,2023.1.3,60.018461679647615,
39,0.5,1.5,69.74494899995625,70.24519639997743,70.24519639997743,70.24519639997743,70.54454039991833,right,1.5,1,1,0.6680831999983639,0001,001,2023-09-05_23h54.05.927,staircase,2023.1.3,60.018461679647615,
40,0.5,1.0,70.96002479991876,71.46097830007784,71.46097830007784,71.46097830007784,71.76120670000091,left,-1.0,1,1,0.7122156000696123,0001,001,2023-09-05_23h54.05.927,staircase,2023.1.3,60.018461679647615,
41,0.5,1.0,72.19410649989732,72.69445489998907,72.67813339992426,72.67813339992426,72.97771129989997,right,1.0,1,1,0.6177824998740107,0001,001,2023-09-05_23h54.05.927,staircase,2023.1.3,60.018461679647615,
42,0.5,1.0,73.32743449998088,73.82774330000393,73.82774330000393,73.82774330000393,74.1284310000483,right,1.0,1,1,0.6059113999363035,0001,001,2023-09-05_23h54.05.927,staircase,2023.1.3,60.018461679647615,
43,0.5,0.5,74.4613137000706,74.96126780007035,74.94412010000087,74.94412010000087,75.2447573998943,right,0.5,0,0,1.03955930005759,0001,001,2023-09-05_23h54.05.927,staircase,2023.1.3,60.018461679647615,
44,0.5,1.0,76.01035479991697,76.51074120006524,76.51074120006524,76.51074120006524,76.81097869994119,right,1.0,1,1,0.5592259000986814,0001,001,2023-09-05_23h54.05.927,staircase,2023.1.3,60.018461679647615,
45,0.5,1.0,77.09430029988289,77.59407970006578,77.5778751000762,77.5778751000762,77.89290699991398,right,1.0,0,0,0.7870655998121947,0001,001,2023-09-05_23h54.05.927,staircase,2023.1.3,60.018461679647615,
46,0.5,1.5,78.39403550000861,78.89456749986857,78.87768670008518,78.87768670008518,79.17726329993457,left,-1.5,1,1,0.7333726000506431,0001,001,2023-09-05_23h54.05.927,staircase,2023.1.3,60.018461679647615,
47,0.5,1.5,79.62653720006347,80.12691099988297,80.12691099988297,80.12691099988297,80.42739790002815,right,1.5,1,1,0.5870337998494506,0001,001,2023-09-05_23h54.05.927,staircase,2023.1.3,60.018461679647615,
48,0.5,1.5,80.74410589993931,81.24428560002707,81.22692200005986,81.22692200005986,81.52730499999598,left,-1.5,1,1,1.9800321999937296,0001,001,2023-09-05_23h54.05.927,staircase,2023.1.3,60.018461679647615,
49,0.5,1.0,83.2269224000629,83.72784549999051,83.72784549999051,83.72784549999051,84.0272295998875,right,1.0,1,1,0.7659610998816788,0001,001,2023-09-05_23h54.05.927,staircase,2023.1.3,60.018461679647615,
50,0.5,1.0,84.51045519998297,85.0101554999128,85.0101554999128,85.0101554999128,85.31054360000417,right,1.0,1,1,0.6515297999139875,0001,001,2023-09-05_23h54.05.927,staircase,2023.1.3,60.018461679647615,
51,0.5,1.0,85.692979299929,86.19242189987563,86.19242189987563,86.19242189987563,86.49369099992327,right,1.0,1,1,0.7361239001620561,0001,001,2023-09-05_23h54.05.927,staircase,2023.1.3,60.018461679647615,
52,0.5,0.5,86.95934629999101,87.46044449997135,87.46044449997135,87.46044449997135,87.76027019997127,left,-0.5,1,1,0.6047957001719624,0001,001,2023-09-05_23h54.05.927,staircase,2023.1.3,60.018461679647615,
53,0.5,0.5,88.09332069987431,88.59313139994629,88.57788829994388,88.57788829994388,88.8935996000655,right,0.5,1,1,0.7152982999105006,0001,001,2023-09-05_23h54.05.927,staircase,2023.1.3,60.018461679647615,
54,0.5,0.5,89.30951080005616,89.81021220004186,89.81021220004186,89.81021220004186,90.11082629999146,right,0.5,1,1,0.9376148998271674,0001,001,2023-09-05_23h54.05.927,staircase,2023.1.3,60.018461679647615,
55,0.5,0.0,90.77672920003533,91.27792829996906,91.27792829996906,91.27792829996906,91.59350199997425,right,0.0,0,0,0.7305610999464989,0001,001,2023-09-05_23h54.05.927,staircase,2023.1.3,60.018461679647615,
56,0.5,0.5,92.02647819998674,92.5266219000332,92.5266219000332,92.5266219000332,92.82670379988849,left,-0.5,0,0,0.5477601001039147,0001,001,2023-09-05_23h54.05.927,staircase,2023.1.3,60.018461679647615,
57,0.5,1.0,93.09338969993405,93.59332089987583,93.57636890001595,93.57636890001595,93.87681799987331,right,1.0,0,0,0.714327400084585,0001,001,2023-09-05_23h54.05.927,staircase,2023.1.3,60.018461679647615,
58,0.5,1.5,94.30920440005139,94.8096932999324,94.8096932999324,94.8096932999324,95.10913349990733,left,-1.5,1,1,0.758311599958688,0001,001,2023-09-05_23h54.05.927,staircase,2023.1.3,60.018461679647615,
59,0.5,1.5,95.59300270001404,96.09290420007892,96.07595600001514,96.07595600001514,96.37625229987316,right,1.5,1,1,0.5774592999368906,0001,001,2023-09-05_23h54.05.927,staircase,2023.1.3,60.018461679647615,
60,0.5,1.5,96.67640640004538,97.17620959994383,97.15973820001818,97.15973820001818,97.46006869990379,left,-1.5,1,1,0.5414927001111209,0001,001,2023-09-05_23h54.05.927,staircase,2023.1.3,60.018461679647615,
61,0.5,1.0,97.72649720008485,98.22614019992761,98.2100347999949,98.2100347999949,98.50960789993405,right,1.0,1,1,0.6383705001790076,0001,001,2023-09-05_23h54.05.927,staircase,2023.1.3,60.018461679647615,
62,0.5,1.0,98.87554119993001,99.37626869999804,99.37626869999804,99.37626869999804,99.67603929992765,right,1.0,0,0,0.715664500137791,0001,001,2023-09-05_23h54.05.927,staircase,2023.1.3,60.018461679647615,
63,0.5,1.5,100.1093728998676,100.60977860004641,100.60977860004641,100.60977860004641,100.90984089998528,left,-1.5,1,1,0.6147153999190778,0001,001,2023-09-05_23h54.05.927,staircase,2023.1.3,60.018461679647615,
64,0.5,1.5,101.24291260004975,101.74260889994912,101.7257673998829,101.7257673998829,102.02564910007641,right,1.5,1,1,0.5942242001183331,0001,001,2023-09-05_23h54.05.927,staircase,2023.1.3,60.018461679647615,
65,0.5,1.5,102.34259020001628,102.84260919992812,102.82584359985776,102.82584359985776,103.12599159986712,right,1.5,1,1,0.7576115999836475,0001,001,2023-09-05_23h54.05.927,staircase,2023.1.3,60.018461679647615,
66,0.5,1.0,103.60944669996388,104.10896939993836,104.09256959985942,104.09256959985942,104.39261829992756,right,1.0,1,1,0.6385258999653161,0001,001,2023-09-05_23h54.05.927,staircase,2023.1.3,60.018461679647615,
67,0.5,1.0,104.75912249996327,105.25888089998625,105.24248140002601,105.24248140002601,105.54238189989701,left,-1.0,1,1,0.7789859999902546,0001,001,2023-09-05_23h54.05.927,staircase,2023.1.3,60.018461679647615,
68,0.5,1.0,106.04206470004283,106.5423367000185,106.52554300008342,106.52554300008342,106.82615830004215,right,1.0,0,0,0.8527539998758584,0001,001,2023-09-05_23h54.05.927,staircase,2023.1.3,60.018461679647615,
69,0.5,1.5,107.40862099989317,107.90881079994142,107.90881079994142,107.90881079994142,108.20882619987242,right,1.5,1,1,0.6007900999393314,0001,001,2023-09-05_23h54.05.927,staircase,2023.1.3,60.018461679647615,
70,0.5,1.5,108.52578040002845,109.02679799986072,109.02679799986072,109.02679799986072,109.34274729993194,left,-1.5,1,1,0.705082600004971,0001,001,2023-09-05_23h54.05.927,staircase,2023.1.3,60.018461679647615,
71,0.5,1.5,109.75929409987293,110.25896740006283,110.24176439992152,110.24176439992152,110.54222709988244,left,-1.5,1,1,0.7782329001929611,0001,001,2023-09-05_23h54.05.927,staircase,2023.1.3,60.018461679647615,
72,0.5,1.0,111.04165779985487,111.54182779998519,111.54182779998519,111.54182779998519,111.84209779999219,right,1.0,1,1,0.5718146001454443,0001,001,2023-09-05_23h54.05.927,staircase,2023.1.3,60.018461679647615,
73,0.5,1.0,112.14247890003026,112.64196610008366,112.64196610008366,112.64196610008366,112.94186710007489,left,-1.0,1,1,0.8597800000570714,0001,001,2023-09-05_23h54.05.927,staircase,2023.1.3,60.018461679647615,
74,0.5,1.0,113.52506770007312,114.02530019986443,114.00956849986687,114.00956849986687,114.30867779999971,right,1.0,1,1,0.5617657001130283,0001,001,2023-09-05_23h54.05.927,staircase,2023.1.3,60.018461679647615,
75,0.5,0.5,114.59161520004272,115.09157989989035,115.07493299990892,115.07493299990892,115.37513709999621,left,-0.5,1,1,0.9038291000761092,0001,001,2023-09-05_23h54.05.927,staircase,2023.1.3,60.018461679647615,
76,0.5,0.5,116.0078992000781,116.50835200003348,116.50835200003348,116.50835200003348,116.80824629985727,right,0.5,1,1,0.6339124999940395,0001,001,2023-09-05_23h54.05.927,staircase,2023.1.3,60.018461679647615,
77,0.5,0.5,117.15814809990115,117.65838139993139,117.65838139993139,117.65838139993139,117.95869380002841,right,0.5,0,0,0.5801166999153793,0001,001,2023-09-05_23h54.05.927,staircase,2023.1.3,60.018461679647615,
78,0.5,1.0,118.2584385999944,118.75828900001943,118.75828900001943,118.75828900001943,119.0583450999111,right,1.0,0,0,0.7614911999553442,0001,001,2023-09-05_23h54.05.927,staircase,2023.1.3,60.018461679647615,
79,0.5,1.5,119.54184650001116,120.04163199989125,120.04163199989125,120.04163199989125,120.34191070008092,right,1.5,1,1,1.0300552998669446,0001,001,2023-09-05_23h54.05.927,staircase,2023.1.3,60.018461679647615,
80,0.5,1.5,121.09099900000729,121.59128549997695,121.57473140000366,121.57473140000366,121.87528799986467,right,1.5,1,1,0.7186167000327259,0001,001,2023-09-05_23h54.05.927,staircase,2023.1.3,60.018461679647615,
81,0.5,1.5,122.3245727000758,122.8245749999769,122.8080569000449,122.8080569000449,123.10797080001794,right,1.5,1,1,0.6314385998994112,0001,001,2023-09-05_23h54.05.927,staircase,2023.1.3,60.018461679647615,
82,0.5,1.0,123.4576029998716,123.95794939994812,123.95794939994812,123.95794939994812,124.25806399993598,right,1.0,1,1,0.498915100004524,0001,001,2023-09-05_23h54.05.927,staircase,2023.1.3,60.018461679647615,
83,0.5,1.0,124.47417379985563,124.97476339992136,124.95835669990629,124.95835669990629,125.25809470005333,left,-1.0,0,0,0.47047509998083115,0001,001,2023-09-05_23h54.05.927,staircase,2023.1.3,60.018461679647615,
84,0.5,1.5,125.45804820000194,125.95780489989556,125.95780489989556,125.95780489989556,126.25805479986593,left,-1.5,1,1,0.5669092000462115,0001,001,2023-09-05_23h54.05.927,staircase,2023.1.3,60.018461679647615,
85,0.5,1.5,126.54127479996532,127.04076469992287,127.04076469992287,127.04076469992287,127.34133079997264,right,1.5,1,1,0.5745209001470357,0001,001,2023-09-05_23h54.05.927,staircase,2023.1.3,60.018461679647615,
86,0.5,1.5,127.65636939997785,128.15777539997362,128.14077090006322,128.14077090006322,128.4409536998719,right,1.5,1,1,0.5896687998902053,0001,001,2023-09-05_23h54.05.927,staircase,2023.1.3,60.018461679647615,
87,0.5,1.0,128.7572071000468,129.25739889987744,129.25739889987744,129.25739889987744,129.5578308000695,right,1.0,1,1,0.5561963999643922,0001,001,2023-09-05_23h54.05.927,staircase,2023.1.3,60.018461679647615,
88,0.5,1.0,129.84050010005012,130.34082049992867,130.32387900003232,130.32387900003232,130.62413650006056,left,-1.0,0,0,1.294192099943757,0001,001,2023-09-05_23h54.05.927,staircase,2023.1.3,60.018461679647615,
89,0.5,1.5,131.64085359987803,132.14094990002923,132.14094990002923,132.14094990002923,132.440870200051,left,-1.5,0,0,0.5342056998051703,0001,001,2023-09-05_23h54.05.927,staircase,2023.1.3,60.018461679647615,
90,0.5,2.0,132.7071851999499,133.20754650002345,133.20754650002345,133.20754650002345,133.50729779992253,left,-2.0,0,0,0.5599971998017281,0001,001,2023-09-05_23h54.05.927,staircase,2023.1.3,60.018461679647615,
91,0.5,2.5,133.79075090005063,134.29054070007987,134.29054070007987,134.29054070007987,134.59086459991522,right,2.5,1,1,0.6957483999431133,0001,001,2023-09-05_23h54.05.927,staircase,2023.1.3,60.018461679647615,
92,0.5,2.5,135.0073068998754,135.50709829991683,135.49052140000276,135.49052140000276,135.7906418000348,left,-2.5,1,1,0.5342431999742985,0001,001,2023-09-05_23h54.05.927,staircase,2023.1.3,60.018461679647615,
93,0.5,2.5,136.0574516998604,136.55713850003667,136.54082069988362,136.54082069988362,136.84054269990884,right,2.5,1,1,0.5671369999181479,0001,001,2023-09-05_23h54.05.927,staircase,2023.1.3,60.018461679647615,
94,0.5,2.0,137.12333719991148,137.6241264999844,137.6241264999844,137.6241264999844,137.92393759987317,right,2.0,1,1,0.62623479985632,0001,001,2023-09-05_23h54.05.927,staircase,2023.1.3,60.018461679647615,
95,0.5,2.0,138.27350339991972,138.77395679987967,138.75676360004582,138.75676360004582,139.05715429992415,left,-2.0,1,1,0.6002213000319898,0001,001,2023-09-05_23h54.05.927,staircase,2023.1.3,60.018461679647615,
96,0.5,2.0,139.3731316998601,139.87362269987352,139.87362269987352,139.87362269987352,140.1734593999572,left,-2.0,1,1,0.7815183999482542,0001,001,2023-09-05_23h54.05.927,staircase,2023.1.3,60.018461679647615,
97,0.5,1.5,140.67303139995784,141.17343299998902,141.17343299998902,141.17343299998902,141.47356579988264,left,-1.5,0,0,0.3985874999780208,0001,001,2023-09-05_23h54.05.927,staircase,2023.1.3,60.018461679647615,
98,0.5,2.0,141.58976499992423,142.09004929987714,142.09004929987714,142.09004929987714,142.39031940000132,right,2.0,0,0,0.7106502000242472,0001,001,2023-09-05_23h54.05.927,staircase,2023.1.3,60.018461679647615,
99,0.5,2.5,142.82351360004395,143.3227174000349,143.3227174000349,143.3227174000349,143.62336470000446,right,2.5,1,1,0.815247300080955,0001,001,2023-09-05_23h54.05.927,staircase,2023.1.3,60.018461679647615,
100,0.5,2.5,144.15599810006097,144.65669610002078,144.65669610002078,144.65669610002078,144.95692329993472,left,-2.5,1,1,0.8206140000838786,0001,001,2023-09-05_23h54.05.927,staircase,2023.1.3,60.018461679647615,
101,0.5,2.5,145.5062080998905,146.0063714000862,145.99008790007792,145.99008790007792,146.28993769991212,left,-2.5,1,1,0.8115457000676543,0001,001,2023-09-05_23h54.05.927,staircase,2023.1.3,60.018461679647615,
102,0.5,2.0,146.82278679986484,147.32313679996878,147.32313679996878,147.32313679996878,147.6232801999431,right,2.0,1,1,0.6000826999079436,0001,001,2023-09-05_23h54.05.927,staircase,2023.1.3,60.018461679647615,
103,0.5,2.0,147.9398606000468,148.43961929995567,148.43961929995567,148.43961929995567,148.73976760008372,right,2.0,1,1,0.5904671000316739,0001,001,2023-09-05_23h54.05.927,staircase,2023.1.3,60.018461679647615,
104,0.5,2.0,149.05603670002893,149.55654989997856,149.53992970008403,149.53992970008403,149.83991819992661,left,-2.0,1,1,1.418043800164014,0001,001,2023-09-05_23h54.05.927,staircase,2023.1.3,60.018461679647615,
105,0.5,1.5,150.98963289987296,151.4895931999199,151.4895931999199,151.4895931999199,151.78963489993475,left,-1.5,0,0,0.5868095001205802,0001,001,2023-09-05_23h54.05.927,staircase,2023.1.3,60.018461679647615,
106,0.5,2.0,152.10625980002806,152.6065092999488,152.6065092999488,152.6065092999488,152.9062570000533,left,-2.0,1,1,0.6258936999365687,0001,001,2023-09-05_23h54.05.927,staircase,2023.1.3,60.018461679647615,
107,0.5,2.0,153.25619079987518,153.75611660000868,153.75611660000868,153.75611660000868,154.05626629991457,right,2.0,1,1,0.5480456000659615,0001,001,2023-09-05_23h54.05.927,staircase,2023.1.3,60.018461679647615,
108,0.5,2.0,154.32222780003212,154.8229223000817,154.8229223000817,154.8229223000817,155.12265869998373,left,-2.0,1,1,0.7538298999425024,0001,001,2023-09-05_23h54.05.927,staircase,2023.1.3,60.018461679647615,
109,0.5,1.5,155.60609759995714,156.10590189998038,156.10590189998038,156.10590189998038,156.4058274999261,left,-1.5,1,1,1.9145352998748422,0001,001,2023-09-05_23h54.05.927,staircase,2023.1.3,60.018461679647615,
110,0.5,1.5,158.03887100005522,158.53943719994277,158.53943719994277,158.53943719994277,158.83900570007972,left,-1.5,1,1,1.9159429999999702,0001,001,2023-09-05_23h54.05.927,staircase,2023.1.3,60.018461679647615,
111,0.5,1.5,160.4718494999688,160.97246049996465,160.97246049996465,160.97246049996465,161.272169200005,left,-1.5,0,0,0.7871756001841277,0001,001,2023-09-05_23h54.05.927,staircase,2023.1.3,60.018461679647615,
112,0.5,2.0,161.7892819000408,162.28839719993994,162.2723649998661,162.2723649998661,162.57235009991564,right,2.0,1,1,0.6727956999093294,0001,001,2023-09-05_23h54.05.927,staircase,2023.1.3,60.018461679647615,
113,0.5,2.0,162.9722328998614,163.4724079000298,163.4724079000298,163.4724079000298,163.77235369989648,left,-2.0,1,1,0.6306449000257999,0001,001,2023-09-05_23h54.05.927,staircase,2023.1.3,60.018461679647615,
114,0.5,2.0,164.12229229998775,164.62207639985718,164.62207639985718,164.62207639985718,164.92214579996653,right,2.0,1,1,0.7727745000738651,0001,001,2023-09-05_23h54.05.927,staircase,2023.1.3,60.018461679647615,
115,0.5,1.5,165.4218860999681,165.92185409995727,165.92185409995727,165.92185409995727,166.22212959988974,right,1.5,0,0,1.0497232000343502,0001,001,2023-09-05_23h54.05.927,staircase,2023.1.3,60.018461679647615,
116,0.5,2.0,166.99020170001313,167.50491659995168,167.47177130007185,167.47177130007185,167.77195640001446,left,-2.0,1,1,0.7551102000288665,0001,001,2023-09-05_23h54.05.927,staircase,2023.1.3,60.018461679647615,
117,0.5,2.0,168.25480769993737,168.75492409989238,168.75492409989238,168.75492409989238,169.05535540007986,right,2.0,0,0,1.7929686000570655,0001,001,2023-09-05_23h54.05.927,staircase,2023.1.3,60.018461679647615,
118,0.5,2.5,170.57128819986247,171.071551800007,171.05473129986785,171.05473129986785,171.3552270999644,left,-2.5,1,1,1.0277269999496639,0001,001,2023-09-05_23h54.05.927,staircase,2023.1.3,60.018461679647615,
119,0.5,2.5,172.10442309989594,172.60530880000442,172.60530880000442,172.60530880000442,172.90509569994174,left,-2.5,1,1,0.9540669999551028,0001,001,2023-09-05_23h54.05.927,staircase,2023.1.3,60.018461679647615,
120,0.5,2.5,173.58776400005445,174.08787190006115,174.08787190006115,174.08787190006115,174.38832690007985,right,2.5,1,1,0.8075981999281794,0001,001,2023-09-05_23h54.05.927,staircase,2023.1.3,60.018461679647615,
121,0.5,2.0,174.9219799998682,175.42182149994187,175.42182149994187,175.42182149994187,175.72153099998832,right,2.0,1,1,0.5966394001152366,0001,001,2023-09-05_23h54.05.927,staircase,2023.1.3,60.018461679647615,
122,0.5,2.0,176.03738959995098,176.5384489998687,176.5384489998687,176.5384489998687,176.83809179998934,right,2.0,1,1,0.5761345999781042,0001,001,2023-09-05_23h54.05.927,staircase,2023.1.3,60.018461679647615,
123,0.5,2.0,177.13806140003726,177.6379076000303,177.6379076000303,177.6379076000303,177.93810889986344,left,-2.0,1,1,0.56208990002051,0001,001,2023-09-05_23h54.05.927,staircase,2023.1.3,60.018461679647615,
124,0.5,1.5,178.2215801998973,178.72117680008523,178.72117680008523,178.72117680008523,179.02133619994856,right,1.5,1,1,1.6178325999062508,0001,001,2023-09-05_23h54.05.927,staircase,2023.1.3,60.018461679647615,
125,0.5,1.5,180.37106839986518,180.87105010007508,180.87105010007508,180.87105010007508,181.1712304998655,left,-1.5,1,1,0.6014243999961764,0001,001,2023-09-05_23h54.05.927,staircase,2023.1.3,60.018461679647615,
126,0.5,1.5,181.5041239000857,182.00458039995283,181.98762959986925,181.98762959986925,182.28786520007998,left,-1.5,1,1,0.7280406001955271,0001,001,2023-09-05_23h54.05.927,staircase,2023.1.3,60.018461679647615,
127,0.5,1.0,182.73767619999126,183.23773190006614,183.23773190006614,183.23773190006614,183.53764620004222,right,1.0,0,0,1.3327219001948833,0001,001,2023-09-05_23h54.05.927,staircase,2023.1.3,60.018461679647615,
128,0.5,1.5,184.5874006000813,185.08728410000913,185.08728410000913,185.08728410000913,185.38764650002122,right,1.5,1,1,0.5294568999670446,0001,001,2023-09-05_23h54.05.927,staircase,2023.1.3,60.018461679647615,
129,0.5,1.5,185.63740530004725,186.13725499995053,186.12042679986916,186.12042679986916,186.42080940003507,right,1.5,1,1,0.6142130999360234,0001,001,2023-09-05_23h54.05.927,staircase,2023.1.3,60.018461679647615,
130,0.5,1.5,186.75398829998448,187.2536237000022,187.2536237000022,187.2536237000022,187.5682480998803,right,1.5,1,1,0.5488903999794275,0001,001,2023-09-05_23h54.05.927,staircase,2023.1.3,60.018461679647615,
131,0.5,1.0,187.82032820000313,188.32037169998512,188.32037169998512,188.32037169998512,188.62065459997393,left,-1.0,1,1,0.4246293001342565,0001,001,2023-09-05_23h54.05.927,staircase,2023.1.3,60.018461679647615,
132,0.5,1.0,188.77098000003025,189.27032770006917,189.27032770006917,189.27032770006917,189.57044530007988,left,-1.0,1,1,0.6468834998086095,0001,001,2023-09-05_23h54.05.927,staircase,2023.1.3,60.018461679647615,
133,0.5,1.0,189.93700150004588,190.43729669996537,190.43729669996537,190.43729669996537,190.73719289992005,right,1.0,0,0,0.7608471000567079,0001,001,2023-09-05_23h54.05.927,staircase,2023.1.3,60.018461679647615,
134,0.5,1.5,191.22004480008036,191.72069139988162,191.70374109991826,191.70374109991826,192.00392649997957,left,-1.5,1,1,0.6269723000004888,0001,001,2023-09-05_23h54.05.927,staircase,2023.1.3,60.018461679647615,
135,0.5,1.5,192.3538975000847,192.85382479988039,192.85382479988039,192.85382479988039,193.15370579995215,right,1.5,1,1,0.46984350006096065,0001,001,2023-09-05_23h54.05.927,staircase,2023.1.3,60.018461679647615,
136,0.5,1.5,193.35416730004363,193.85359150008298,193.83726529986598,193.83726529986598,194.13680609990843,left,-1.5,1,1,0.5741485999897122,0001,001,2023-09-05_23h54.05.927,staircase,2023.1.3,60.018461679647615,
137,0.5,1.0,194.43625380005687,194.93702639988624,194.93702639988624,194.93702639988624,195.2369391999673,right,1.0,1,1,0.6919779998715967,0001,001,2023-09-05_23h54.05.927,staircase,2023.1.3,60.018461679647615,
138,0.5,1.0,195.65347289992496,196.15353400004096,196.15353400004096,196.15353400004096,196.4536029000301,right,1.0,1,1,0.6553987998049706,0001,001,2023-09-05_23h54.05.927,staircase,2023.1.3,60.018461679647615,
139,0.5,1.0,196.83636289997958,197.33688870002516,197.33688870002516,197.33688870002516,197.63664869987406,left,-1.0,1,1,0.7090346999466419,0001,001,2023-09-05_23h54.05.927,staircase,2023.1.3,60.018461679647615,
140,0.5,0.5,198.07030389993452,198.56994899990968,198.56994899990968,198.56994899990968,198.8701621000655,right,0.5,1,1,0.9392268999945372,0001,001,2023-09-05_23h54.05.927,staircase,2023.1.3,60.018461679647615,
141,0.5,0.5,199.5368200999219,200.03664069995284,200.0201937998645,200.0201937998645,200.32002099999227,left,-0.5,1,1,0.5948648999910802,0001,001,2023-09-05_23h54.05.927,staircase,2023.1.3,60.018461679647615,
142,0.5,0.5,200.6368167998735,201.13646559999324,201.13646559999324,201.13646559999324,201.43641950003803,right,0.5,1,1,0.7404771000146866,0001,001,2023-09-05_23h54.05.927,staircase,2023.1.3,60.018461679647615,
143,0.5,0.0,201.9031154999975,202.40320559986867,202.40320559986867,202.40320559986867,202.70307599985972,left,-0.0,1,1,0.6323925999458879,0001,001,2023-09-05_23h54.05.927,staircase,2023.1.3,60.018461679647615,
144,0.5,0.0,203.05312830000184,203.5530441000592,203.5530441000592,203.5530441000592,203.85304880002514,left,-0.0,0,0,0.45247239992022514,0001,001,2023-09-05_23h54.05.927,staircase,2023.1.3,60.018461679647615,
145,0.5,0.5,204.0358257999178,204.5360771000851,204.5360771000851,204.5360771000851,204.83642639988102,left,-0.5,1,1,0.48265299992635846,0001,001,2023-09-05_23h54.05.927,staircase,2023.1.3,60.018461679647615,
146,0.5,0.5,205.03571809991263,205.53538200003095,205.53538200003095,205.53538200003095,205.83616010006517,right,0.5,1,1,0.5616560000926256,0001,001,2023-09-05_23h54.05.927,staircase,2023.1.3,60.018461679647615,
147,0.5,0.5,206.11929729999974,206.6192250000313,206.60254530003294,206.60254530003294,206.90281779994257,right,0.5,1,1,0.8234157999977469,0001,001,2023-09-05_23h54.05.927,staircase,2023.1.3,60.018461679647615,
148,0.5,0.0,207.45214059995487,207.95276120002382,207.95276120002382,207.95276120002382,208.25293130008504,left,-0.0,1,1,0.7853093000594527,0001,001,2023-09-05_23h54.05.927,staircase,2023.1.3,60.018461679647615,
149,0.5,0.0,208.76913039991632,209.26895759999752,209.26895759999752,209.26895759999752,209.56969540007412,left,-0.0,0,0,0.6766307998914272,0001,001,2023-09-05_23h54.05.927,staircase,2023.1.3,60.018461679647615,
150,0.5,0.5,209.9692937999498,210.46959170000628,210.46959170000628,210.46959170000628,210.76925270003267,right,0.5,1,1,0.8467693000566214,0001,001,2023-09-05_23h54.05.927,staircase,2023.1.3,60.018461679647615,
151,0.5,0.5,211.33575319987722,211.83594470005482,211.83594470005482,211.83594470005482,212.13570329989307,left,-0.5,1,1,1.1483372000511736,0001,001,2023-09-05_23h54.05.927,staircase,2023.1.3,60.018461679647615,
152,0.5,0.5,213.0025875000283,213.5022833000403,213.5022833000403,213.5022833000403,213.80245499988087,left,-0.5,1,1,0.8269517000298947,0001,001,2023-09-05_23h54.05.927,staircase,2023.1.3,60.018461679647615,
153,0.5,0.0,214.35238529997878,214.85220950003713,214.85220950003713,214.85220950003713,215.15251359995455,left,-0.0,1,1,0.6528194001875818,0001,001,2023-09-05_23h54.05.927,staircase,2023.1.3,60.018461679647615,
154,0.5,0.0,215.53474549995735,216.03556149988435,216.03556149988435,216.03556149988435,216.33538289996795,left,-0.0,1,1,0.6071358998306096,0001,001,2023-09-05_23h54.05.927,staircase,2023.1.3,60.018461679647615,
155,0.5,0.0,216.66835290007293,217.1686986000277,217.1686986000277,217.1686986000277,217.46894349996,right,0.0,1,1,0.9009387998376042,0001,001,2023-09-05_23h54.05.927,staircase,2023.1.3,60.018461679647615,
156,0.5,0.0,218.1017211000435,218.60220579989254,218.60220579989254,218.60220579989254,218.90172480000183,left,-0.0,0,0,0.7755386000499129,0001,001,2023-09-05_23h54.05.927,staircase,2023.1.3,60.018461679647615,
157,0.5,0.5,219.4015166000463,219.90195499989204,219.90195499989204,219.90195499989204,220.20213399990462,right,0.5,1,1,1.0103265000507236,0001,001,2023-09-05_23h54.05.927,staircase,2023.1.3,60.018461679647615,
158,0.5,0.5,220.93536569993012,221.43513359990902,221.41833989997394,221.41833989997394,221.7187496998813,left,-0.5,1,1,1.079404299845919,0001,001,2023-09-05_23h54.05.927,staircase,2023.1.3,60.018461679647615,
159,0.5,0.5,222.51794719998725,223.01843339996412,223.00178559985943,223.00178559985943,223.30183429992758,left,-0.5,1,1,0.6356722998898476,0001,001,2023-09-05_23h54.05.927,staircase,2023.1.3,60.018461679647615,
160,0.5,0.0,223.66864950000308,224.1684306000825,224.1684306000825,224.1684306000825,224.46845229994506,left,-0.0,0,0,0.5667738001793623,0001,001,2023-09-05_23h54.05.927,staircase,2023.1.3,60.018461679647615,
161,0.5,0.5,224.75190440006554,225.25160599988885,225.25160599988885,225.25160599988885,225.55190659989603,left,-0.5,0,0,0.7451889000367373,0001,001,2023-09-05_23h54.05.927,staircase,2023.1.3,60.018461679647615,
162,0.5,1.0,226.01839250000194,226.51777180004865,226.51777180004865,226.51777180004865,226.81821639998816,left,-1.0,1,1,1.5263453000225127,0001,001,2023-09-05_23h54.05.927,staircase,2023.1.3,60.018461679647615,
163,0.5,1.0,228.06814759992994,228.56831600004807,228.56831600004807,228.56831600004807,228.86793499998748,right,1.0,0,0,1.4251645000185817,0001,001,2023-09-05_23h54.05.927,staircase,2023.1.3,60.018461679647615,
164,0.5,1.5,230.01794170006178,230.5176136000082,230.500893099932,230.500893099932,230.80148559994996,right,1.5,0,0,1.500271099852398,0001,001,2023-09-05_23h54.05.927,staircase,2023.1.3,60.018461679647615,
165,0.5,2.0,232.01777349994518,232.5179427000694,232.5179427000694,232.5179427000694,232.81795499986038,left,-2.0,1,1,0.6714341999031603,0001,001,2023-09-05_23h54.05.927,staircase,2023.1.3,60.018461679647615,
166,0.5,2.0,233.2174851000309,233.7178702999372,233.7178702999372,233.7178702999372,234.0179200998973,right,2.0,1,1,0.7258446000050753,0001,001,2023-09-05_23h54.05.927,staircase,2023.1.3,60.018461679647615,
167,0.5,2.0,234.46648319996893,234.96735269995406,234.95077120000497,234.95077120000497,235.25060399994254,left,-2.0,1,1,0.7614521000068635,0001,001,2023-09-05_23h54.05.927,staircase,2023.1.3,60.018461679647615,
168,0.5,1.5,235.73509879992343,236.23459680005908,236.23459680005908,236.23459680005908,236.5344074999448,left,-1.5,1,1,0.6412551999092102,0001,001,2023-09-05_23h54.05.927,staircase,2023.1.3,60.018461679647615,
169,0.5,1.5,236.90055319992825,237.40082129999064,237.3840147999581,237.3840147999581,237.68432009988464,left,-1.5,1,1,0.67801050003618,0001,001,2023-09-05_23h54.05.927,staircase,2023.1.3,60.018461679647615,
170,0.5,1.5,238.08375780005008,238.58412240003236,238.5676585000474,238.5676585000474,238.86750809988007,left,-1.5,1,1,0.8888326999731362,0001,001,2023-09-05_23h54.05.927,staircase,2023.1.3,60.018461679647615,
171,0.5,1.0,239.48388329986483,239.9839649000205,239.96763259987347,239.96763259987347,240.26757929986343,right,1.0,0,0,1.1088992999866605,0001,001,2023-09-05_23h54.05.927,staircase,2023.1.3,60.018461679647615,
172,0.5,1.5,241.10049490001984,241.60040539992042,241.60040539992042,241.60040539992042,241.9007129999809,left,-1.5,1,1,0.6999693000689149,0001,001,2023-09-05_23h54.05.927,staircase,2023.1.3,60.018461679647615,
173,0.5,1.5,242.31688959989697,242.81667009997182,242.81667009997182,242.81667009997182,243.1174633000046,right,1.5,0,0,1.130698800086975,0001,001,2023-09-05_23h54.05.927,staircase,2023.1.3,60.018461679647615,
174,0.5,2.0,243.96665159985423,244.46720659988932,244.45087839988992,244.45087839988992,244.750491600018,left,-2.0,1,1,0.7664791999850422,0001,001,2023-09-05_23h54.05.927,staircase,2023.1.3,60.018461679647615,
175,0.5,2.0,245.2339486000128,245.73636780004017,245.71667929994874,245.71667929994874,246.01722000003792,right,2.0,1,1,0.530405999859795,0001,001,2023-09-05_23h54.05.927,staircase,2023.1.3,60.018461679647615,
176,0.5,2.0,246.2667908000294,246.76691249990836,246.74996879999526,246.74996879999526,247.05038219993003,right,2.0,1,1,0.47945640003308654,0001,001,2023-09-05_23h54.05.927,staircase,2023.1.3,60.018461679647615,
177,0.5,1.5,247.24978339998052,247.74998429999687,247.74998429999687,247.74998429999687,248.05056959996,right,1.5,1,1,0.6860765002202243,0001,001,2023-09-05_23h54.05.927,staircase,2023.1.3,60.018461679647615,
178,0.5,1.5,248.46739719994366,248.9668992999941,248.9668992999941,248.9668992999941,249.26699889986776,right,1.5,1,1,0.4320588998962194,0001,001,2023-09-05_23h54.05.927,staircase,2023.1.3,60.018461679647615,
179,0.5,1.5,249.41689079999924,249.91649800003506,249.8996828000527,249.8996828000527,250.2001040999312,left,-1.5,1,1,0.5126231999602169,0001,001,2023-09-05_23h54.05.927,staircase,2023.1.3,60.018461679647615,
180,0.5,1.0,250.43339559994638,250.93325680005364,250.91640129988082,250.91640129988082,251.21686560008675,right,1.0,1,1,0.5943422000855207,0001,001,2023-09-05_23h54.05.927,staircase,2023.1.3,60.018461679647615,
181,0.5,1.0,251.53344179992564,252.0334286999423,252.0334286999423,252.0334286999423,252.33333309995942,left,-1.0,0,0,1.1083539999090135,0001,001,2023-09-05_23h54.05.927,staircase,2023.1.3,60.018461679647615,
182,0.5,1.5,253.1660907000769,253.66654039989226,253.6498632999137,253.6498632999137,253.94977750000544,right,1.5,1,1,0.6478114000055939,0001,001,2023-09-05_23h54.05.927,staircase,2023.1.3,60.018461679647615,
183,0.5,1.5,254.31639539985918,254.81655490002595,254.81655490002595,254.81655490002595,255.11639550002292,left,-1.5,1,1,0.5847874998580664,0001,001,2023-09-05_23h54.05.927,staircase,2023.1.3,60.018461679647615,
184,0.5,1.5,255.43322509992868,255.9329261998646,255.9329261998646,255.9329261998646,256.23319100006483,right,1.5,1,1,0.9290243000723422,0001,001,2023-09-05_23h54.05.927,staircase,2023.1.3,60.018461679647615,
185,0.5,1.0,256.882479300024,257.3828259999864,257.3665948000271,257.3665948000271,257.66648059990257,left,-1.0,1,1,0.7812693999148905,0001,001,2023-09-05_23h54.05.927,staircase,2023.1.3,60.018461679647615,
186,0.5,1.0,258.16630419995636,258.6661461999174,258.6661461999174,258.6661461999174,258.96624179999344,right,1.0,1,1,0.7745898000430316,0001,001,2023-09-05_23h54.05.927,staircase,2023.1.3,60.018461679647615,
187,0.5,1.0,259.46594939986244,259.9660515000578,259.9660515000578,259.9660515000578,260.2662189998664,right,1.0,1,1,1.5000412999652326,0001,001,2023-09-05_23h54.05.927,staircase,2023.1.3,60.018461679647615,
188,0.5,0.5,261.4828355999198,261.9823920999188,261.9823920999188,261.9823920999188,262.2828488999512,right,0.5,1,1,0.6228239999618381,0001,001,2023-09-05_23h54.05.927,staircase,2023.1.3,60.018461679647615,
189,0.5,0.5,262.63225629995577,263.1324702000711,263.1324702000711,263.1324702000711,263.4328695998993,right,0.5,1,1,0.3936743000522256,0001,001,2023-09-05_23h54.05.927,staircase,2023.1.3,60.018461679647615,
190,0.5,0.5,263.549049400026,264.04905000003055,264.0323010000866,264.0323010000866,264.33260939992033,left,-0.5,1,1,0.6220754000823945,0001,001,2023-09-05_23h54.05.927,staircase,2023.1.3,60.018461679647615,
191,0.5,0.0,264.6819038998801,265.1826100999024,265.1826100999024,265.1826100999024,265.4822098000441,left,-0.0,1,1,0.7544168999884278,0001,001,2023-09-05_23h54.05.927,staircase,2023.1.3,60.018461679647615,
192,0.5,0.0,265.9650530999061,266.4657628000714,266.4488556999713,266.4488556999713,266.74889150005765,right,0.0,0,0,0.6884123999625444,0001,001,2023-09-05_23h54.05.927,staircase,2023.1.3,60.018461679647615,
193,0.5,0.5,267.165255199885,267.6658504998777,267.6490587000735,267.6490587000735,267.94833449996077,left,-0.5,1,1,0.5614345998037606,0001,001,2023-09-05_23h54.05.927,staircase,2023.1.3,60.018461679647615,
194,0.5,0.5,268.2322698000353,268.7325359999668,268.7325359999668,268.7325359999668,269.03248360008,right,0.5,0,0,0.6054535999428481,0001,001,2023-09-05_23h54.05.927,staircase,2023.1.3,60.018461679647615,
195,0.5,1.0,269.3652283998672,269.8656730998773,269.8484550998546,269.8484550998546,270.14881299994886,right,1.0,1,1,0.6584274999331683,0001,001,2023-09-05_23h54.05.927,staircase,2023.1.3,60.018461679647615,
196,0.5,1.0,270.53184830001555,271.03173929988407,271.0153858999256,271.0153858999256,271.31545739993453,left,-1.0,1,1,0.8543884998653084,0001,001,2023-09-05_23h54.05.927,staircase,2023.1.3,60.018461679647615,
197,0.5,1.0,271.89841899997555,272.39862279989757,272.39862279989757,272.39862279989757,272.6990401998628,left,-1.0,1,1,0.6064495998434722,0001,001,2023-09-05_23h54.05.927,staircase,2023.1.3,60.018461679647615,
198,0.5,0.5,273.03222270007245,273.53219579998404,273.53219579998404,273.53219579998404,273.83199899992906,left,-0.5,1,1,0.9260501998942345,0001,001,2023-09-05_23h54.05.927,staircase,2023.1.3,60.018461679647615,
199,0.5,0.5,274.48200469999574,274.9814365999773,274.9814365999773,274.9814365999773,275.2820452998858,left,-0.5,1,1,0.724503800040111,0001,001,2023-09-05_23h54.05.927,staircase,2023.1.3,60.018461679647615,
